Folder: sem-eds-qc/data/Maehlum_2022-09-06_EDS-SEM-APREO

Note: README.md
# sem-eds-qc
SEM EDS quality control program, in Jupyter Notebook

File: GaAs_10kV.emsa
#FORMAT      : EMSA/MAS Spectral Data File
#VERSION     : 1.0
#TITLE       : GaAs_10kV
#DATE        : 06-SEP-2022
#TIME        : 16:53
#OWNER       :
#NPOINTS     : 2048.0
#NCOLUMNS    : 1.0
#XUNITS      : keV
#YUNITS      : counts
#DATATYPE    : XY
#XPERCHAN    : 0.01
#OFFSET      : -0.2
#SIGNALTYPE  : EDS
#CHOFFSET    : 20.0
#LIVETIME    : 55.0
#REALTIME    : 157.212
#BEAMKV      : 10.0
#MAGCAM      : 2936.0
#XTILTSTGE   : 0.0
#AZIMANGLE   : 0.0
#ELEVANGLE   : 35.0
#XPOSITION mm: -15.6696
#YPOSITION mm: -6.9174
#ZPOSITION mm: 9.9088
##OXINSTPT   : 5
##OXINSTSTROB: 36.74
##OXINSTNDET : 1
##OXINSTELEMS: 25,50,8,12
##OXINSTLABEL: 25, 5.899, Mn
##OXINSTLABEL: 25, 6.490, Mn
##OXINSTLABEL: 25, 0.636, Mn
##OXINSTLABEL: 25, 0.556, Mn
##OXINSTLABEL: 50, 3.444, Sn
##OXINSTLABEL: 50, 3.666, Sn
##OXINSTLABEL: 50, 3.905, Sn
##OXINSTLABEL: 50, 3.272, Sn
##OXINSTLABEL: 50, 4.131, Sn
##OXINSTLABEL: 50, 4.377, Sn
##OXINSTLABEL: 50, 3.045, Sn
##OXINSTLABEL: 50, 0.397, Sn
##OXINSTLABEL: 8, 0.522, O
##OXINSTLABEL: 12, 1.254, Mg
#SPECTRUM    : Spectral Data Starts Here
-0.20000, 0.0
-0.13000, 0.0
-0.06000, 2.0
0.01000, 2678.0
0.08000, 547.0
0.15000, 878.0
0.22000, 1590.0
0.29000, 2701.0
0.36000, 1584.0
0.43000, 2584.0
0.50000, 5048.0
0.57000, 3669.0
0.64000, 4237.0
0.71000, 5170.0
0.78000, 5580.0
0.85000, 6094.0
0.92000, 9267.0
0.99000, 14221.0
1.06000, 52768.0
1.13000, 128276.0
1.20000, 10626.0
1.27000, 84015.0
1.34000, 46097.0
1.41000, 4753.0
1.48000, 2766.0
1.55000, 2793.0
1.62000, 2637.0
1.69000, 2773.0
1.76000, 3040.0
1.83000, 2908.0
1.90000, 2652.0
1.97000, 2751.0
2.04000, 2667.0
2.11000, 2824.0
2.18000, 3427.0
2.25000, 3511.0
2.32000, 2915.0
2.39000, 3893.0
2.46000, 3126.0
2.53000, 2692.0
2.60000, 2723.0
2.67000, 2360.0
2.74000, 2240.0
2.81000, 2175.0
2.88000, 2067.0
2.95000, 2111.0
3.02000, 2021.0
3.09000, 2004.0
3.16000, 1989.0
3.23000, 1932.0
3.30000, 1907.0
3.37000, 1804.0
3.44000, 1773.0
3.51000, 1723.0
3.58000, 1679.0
3.65000, 1701.0
3.72000, 1640.0
3.79000, 1562.0
3.86000, 1506.0
3.93000, 1488.0
4.00000, 1508.0
4.07000, 1431.0
4.14000, 1394.0
4.21000, 1331.0
4.28000, 1310.0
4.35000, 1326.0
4.42000, 1218.0
4.49000, 1244.0
4.56000, 1210.0
4.63000, 1144.0
4.70000, 1100.0
4.77000, 1092.0
4.84000, 1087.0
4.91000, 1054.0
4.98000, 985.0
5.05000, 1005.0
5.12000, 971.0
5.19000, 953.0
5.26000, 912.0
5.33000, 899.0
5.40000, 883.0
5.47000, 836.0
5.54000, 802.0
5.61000, 842.0
5.68000, 759.0
5.75000, 747.0
5.82000, 712.0
5.89000, 691.0
5.96000, 702.0
6.03000, 700.0
6.10000, 704.0
6.17000, 623.0
6.24000, 634.0
6.31000, 652.0
6.38000, 579.0
6.45000, 600.0
6.52000, 557.0
6.59000, 530.0
6.66000, 545.0
6.73000, 547.0
6.80000, 511.0
6.87000, 523.0
6.94000, 462.0
7.01000, 457.0
7.08000, 425.0
7.15000, 437.0
7.22000, 403.0
7.29000, 421.0
7.36000, 381.0
7.43000, 361.0
7.50000, 370.0
7.57000, 360.0
7.64000, 355.0
7.71000, 346.0
7.78000, 340.0
7.85000, 294.0
7.92000, 294.0
7.99000, 304.0
8.06000, 288.0
8.13000, 269.0
8.20000, 270.0
8.27000, 237.0
8.34000, 249.0
8.41000, 244.0
8.48000, 214.0
8.55000, 188.0
8.62000, 189.0
8.69000, 189.0
8.76000, 182.0
8.83000, 186.0
8.90000, 160.0
8.97000, 151.0
9.04000, 152.0
9.11000, 126.0
9.18000, 127.0
9.25000, 104.0
9.32000, 103.0
9.39000, 97.0
9.46000, 90.0
9.53000, 81.0
9.60000, 75.0
9.67000, 57.0
9.74000, 47.0
9.81000, 42.0
9.88000, 37.0
9.95000, 25.0
10.02000, 22.0
10.09000, 14.0
10.16000, 10.0
10.23000, 13.0
10.30000, 5.0
10.37000, 10.0
10.44000, 8.0
10.51000, 11.0
10.58000, 9.0
10.65000, 8.0
10.72000, 5.0
10.79000, 7.0
10.86000, 7.0
10.93000, 5.0
11.00000, 7.0
11.07000, 5.0
11.14000, 4.0
11.21000, 4.0
11.28000, 5.0
11.35000, 3.0
11.42000, 3.0
11.49000, 4.0
11.56000, 2.0
11.63000, 2.0
11.70000, 3.0
11.77000, 5.0
11.84000, 4.0
11.91000, 4.0
11.98000, 3.0
12.05000, 3.0
12.12000, 3.0
12.19000, 3.0
12.26000, 4.0
12.33000, 2.0
12.40000, 1.0
12.47000, 2.0
12.54000, 2.0
12.61000, 3.0
12.68000, 2.0
12.75000, 1.0
12.82000, 1.0
12.89000, 1.0
12.96000, 1.0
13.03000, 1.0
13.10000, 2.0
13.17000, 1.0
13.24000, 0.0
13.31000, 2.0
13.38000, 4.0
13.45000, 0.0
13.52000, 1.0
13.59000, 1.0
13.66000, 1.0
13.73000, 2.0
13.80000, 0.0
13.87000, 0.0
13.94000, 1.0
14.01000, 1.0
14.08000, 1.0
14.15000, 1.0
14.22000, 0.0
14.29000, 2.0
14.36000, 1.0
14.43000, 0.0
14.50000, 1.0
14.57000, 0.0
14.64000, 0.0
14.71000, 1.0
14.78000, 0.0
14.85000, 0.0
14.92000, 0.0
14.99000, 1.0
15.06000, 0.0
15.13000, 1.0
15.20000, 1.0
15.27000, 1.0
15.34000, 0.0
15.41000, 0.0
15.48000, 0.0
15.55000, 1.0
15.62000, 1.0
15.69000, 1.0
15.76000, 0.0
15.83000, 1.0
15.90000, 1.0
15.97000, 0.0
16.04000, 1.0
16.11000, 0.0
16.18000, 1.0
16.25000, 1.0
16.32000, 1.0
16.39000, 0.0
16.46000, 0.0
16.53000, 0.0
16.60000, 0.0
16.67000, 0.0
16.74000, 0.0
16.81000, 0.0
16.88000, 0.0
16.95000, 0.0
17.02000, 0.0
17.09000, 0.0
17.16000, 1.0
17.23000, 0.0
17.30000, 0.0
17.37000, 0.0
17.44000, 0.0
17.51000, 0.0
17.58000, 0.0
17.65000, 0.0
17.72000, 0.0
17.79000, 0.0
17.86000, 0.0
17.93000, 0.0
18.00000, 0.0
18.07000, 0.0
18.14000, 0.0
18.21000, 0.0
18.28000, 0.0
18.35000, 0.0
18.42000, 0.0
18.49000, 0.0
18.56000, 0.0
18.63000, 0.0
18.70000, 0.0
18.77000, 0.0
18.84000, 0.0
18.91000, 0.0
18.98000, 0.0
19.05000, 0.0
19.12000, 0.0
19.19000, 0.0
19.26000, 0.0
19.33000, 0.0
19.40000, 0.0
19.47000, 0.0
19.54000, 0.0
19.61000, 0.0
19.68000, 0.0
19.75000, 0.0
19.82000, 0.0
19.89000, 0.0
19.96000, 0.0
20.03000, 0.0
20.10000, 0.0
20.17000, 0.0
20.24000, 0.0
20.27000, 0.0
#ENDOFDATA   :

File: GaAs_15kV.emsa
#FORMAT      : EMSA/MAS Spectral Data File
#VERSION     : 1.0
#TITLE       : GaAs_15kV
#DATE        : 06-SEP-2022
#TIME        : 16:57
#OWNER       :
#NPOINTS     : 2048.0
#NCOLUMNS    : 1.0
#XUNITS      : keV
#YUNITS      : counts
#DATATYPE    : XY
#XPERCHAN    : 0.01
#OFFSET      : -0.2
#SIGNALTYPE  : EDS
#CHOFFSET    : 20.0
#LIVETIME    : 46.4295
#REALTIME    : 113.416
#BEAMKV      : 15.05
#MAGCAM      : 2936.0
#XTILTSTGE   : 0.0
#AZIMANGLE   : 0.0
#ELEVANGLE   : 35.0
#XPOSITION mm: -15.6696
#YPOSITION mm: -6.9174
#ZPOSITION mm: 9.9088
##OXINSTPT   : 5
##OXINSTSTROB: 36.94
##OXINSTNDET : 1
##OXINSTELEMS: 25,50,8,12
##OXINSTLABEL: 25, 5.899, Mn
##OXINSTLABEL: 25, 6.490, Mn
##OXINSTLABEL: 25, 0.636, Mn
##OXINSTLABEL: 25, 0.556, Mn
##OXINSTLABEL: 50, 3.444, Sn
##OXINSTLABEL: 50, 3.666, Sn
##OXINSTLABEL: 50, 3.905, Sn
##OXINSTLABEL: 50, 3.272, Sn
##OXINSTLABEL: 50, 4.131, Sn
##OXINSTLABEL: 50, 4.377, Sn
##OXINSTLABEL: 50, 3.045, Sn
##OXINSTLABEL: 50, 0.397, Sn
##OXINSTLABEL: 8, 0.522, O
##OXINSTLABEL: 12, 1.254, Mg
#SPECTRUM    : Spectral Data Starts Here
-0.20000, 0.0
-0.13000, 0.0
-0.06000, 1.0
0.01000, 2355.0
0.08000, 330.0
0.15000, 443.0
0.22000, 768.0
0.29000, 1694.0
0.36000, 675.0
0.43000, 1112.0
0.50000, 1791.0
0.57000, 1589.0
0.64000, 2116.0
0.71000, 2570.0
0.78000, 2984.0
0.85000, 3483.0
0.92000, 5766.0
0.99000, 9207.0
1.06000, 36864.0
1.13000, 86103.0
1.20000, 6197.0
1.27000, 49814.0
1.34000, 26955.0
1.41000, 2478.0
1.48000, 1404.0
1.55000, 1336.0
1.62000, 1335.0
1.69000, 1452.0
1.76000, 1801.0
1.83000, 1572.0
1.90000, 1436.0
1.97000, 1502.0
2.04000, 1619.0
2.11000, 1629.0
2.18000, 2101.0
2.25000, 2144.0
2.32000, 1729.0
2.39000, 2297.0
2.46000, 1884.0
2.53000, 1677.0
2.60000, 1772.0
2.67000, 1564.0
2.74000, 1517.0
2.81000, 1543.0
2.88000, 1583.0
2.95000, 1487.0
3.02000, 1468.0
3.09000, 1449.0
3.16000, 1460.0
3.23000, 1440.0
3.30000, 1391.0
3.37000, 1384.0
3.44000, 1342.0
3.51000, 1410.0
3.58000, 1335.0
3.65000, 1245.0
3.72000, 1269.0
3.79000, 1219.0
3.86000, 1218.0
3.93000, 1202.0
4.00000, 1194.0
4.07000, 1158.0
4.14000, 1129.0
4.21000, 1108.0
4.28000, 1071.0
4.35000, 1098.0
4.42000, 1030.0
4.49000, 1041.0
4.56000, 1040.0
4.63000, 1003.0
4.70000, 944.0
4.77000, 981.0
4.84000, 971.0
4.91000, 931.0
4.98000, 883.0
5.05000, 881.0
5.12000, 844.0
5.19000, 842.0
5.26000, 830.0
5.33000, 810.0
5.40000, 825.0
5.47000, 752.0
5.54000, 751.0
5.61000, 737.0
5.68000, 738.0
5.75000, 732.0
5.82000, 706.0
5.89000, 716.0
5.96000, 694.0
6.03000, 684.0
6.10000, 701.0
6.17000, 671.0
6.24000, 651.0
6.31000, 600.0
6.38000, 618.0
6.45000, 607.0
6.52000, 607.0
6.59000, 604.0
6.66000, 569.0
6.73000, 552.0
6.80000, 561.0
6.87000, 547.0
6.94000, 539.0
7.01000, 533.0
7.08000, 516.0
7.15000, 526.0
7.22000, 501.0
7.29000, 506.0
7.36000, 460.0
7.43000, 487.0
7.50000, 464.0
7.57000, 462.0
7.64000, 429.0
7.71000, 454.0
7.78000, 408.0
7.85000, 421.0
7.92000, 388.0
7.99000, 411.0
8.06000, 390.0
8.13000, 391.0
8.20000, 401.0
8.27000, 372.0
8.34000, 371.0
8.41000, 386.0
8.48000, 351.0
8.55000, 372.0
8.62000, 355.0
8.69000, 359.0
8.76000, 346.0
8.83000, 329.0
8.90000, 351.0
8.97000, 351.0
9.04000, 396.0
9.11000, 957.0
9.18000, 3106.0
9.25000, 4405.0
9.32000, 2213.0
9.39000, 614.0
9.46000, 326.0
9.53000, 276.0
9.60000, 257.0
9.67000, 272.0
9.74000, 271.0
9.81000, 245.0
9.88000, 266.0
9.95000, 248.0
10.02000, 260.0
10.09000, 282.0
10.16000, 480.0
10.23000, 825.0
10.30000, 787.0
10.37000, 613.0
10.44000, 1102.0
10.51000, 1719.0
10.58000, 1376.0
10.65000, 547.0
10.72000, 240.0
10.79000, 192.0
10.86000, 195.0
10.93000, 184.0
11.00000, 174.0
11.07000, 184.0
11.14000, 180.0
11.21000, 171.0
11.28000, 161.0
11.35000, 183.0
11.42000, 171.0
11.49000, 183.0
11.56000, 191.0
11.63000, 289.0
11.70000, 359.0
11.77000, 299.0
11.84000, 204.0
11.91000, 133.0
11.98000, 125.0
12.05000, 119.0
12.12000, 103.0
12.19000, 109.0
12.26000, 108.0
12.33000, 107.0
12.40000, 97.0
12.47000, 99.0
12.54000, 97.0
12.61000, 91.0
12.68000, 98.0
12.75000, 91.0
12.82000, 86.0
12.89000, 73.0
12.96000, 76.0
13.03000, 83.0
13.10000, 78.0
13.17000, 65.0
13.24000, 60.0
13.31000, 62.0
13.38000, 56.0
13.45000, 62.0
13.52000, 51.0
13.59000, 50.0
13.66000, 45.0
13.73000, 40.0
13.80000, 49.0
13.87000, 50.0
13.94000, 45.0
14.01000, 44.0
14.08000, 30.0
14.15000, 39.0
14.22000, 30.0
14.29000, 30.0
14.36000, 27.0
14.43000, 25.0
14.50000, 25.0
14.57000, 24.0
14.64000, 18.0
14.71000, 14.0
14.78000, 20.0
14.85000, 15.0
14.92000, 16.0
14.99000, 7.0
15.06000, 6.0
15.13000, 6.0
15.20000, 5.0
15.27000, 6.0
15.34000, 4.0
15.41000, 7.0
15.48000, 6.0
15.55000, 6.0
15.62000, 4.0
15.69000, 6.0
15.76000, 2.0
15.83000, 4.0
15.90000, 2.0
15.97000, 1.0
16.04000, 5.0
16.11000, 2.0
16.18000, 6.0
16.25000, 4.0
16.32000, 4.0
16.39000, 5.0
16.46000, 2.0
16.53000, 4.0
16.60000, 2.0
16.67000, 1.0
16.74000, 2.0
16.81000, 3.0
16.88000, 3.0
16.95000, 5.0
17.02000, 7.0
17.09000, 5.0
17.16000, 2.0
17.23000, 2.0
17.30000, 2.0
17.37000, 1.0
17.44000, 2.0
17.51000, 2.0
17.58000, 4.0
17.65000, 3.0
17.72000, 4.0
17.79000, 3.0
17.86000, 4.0
17.93000, 2.0
18.00000, 2.0
18.07000, 2.0
18.14000, 1.0
18.21000, 2.0
18.28000, 1.0
18.35000, 3.0
18.42000, 7.0
18.49000, 5.0
18.56000, 4.0
18.63000, 3.0
18.70000, 0.0
18.77000, 3.0
18.84000, 2.0
18.91000, 2.0
18.98000, 2.0
19.05000, 1.0
19.12000, 0.0
19.19000, 0.0
19.26000, 1.0
19.33000, 1.0
19.40000, 2.0
19.47000, 2.0
19.54000, 1.0
19.61000, 1.0
19.68000, 1.0
19.75000, 2.0
19.82000, 3.0
19.89000, 3.0
19.96000, 1.0
20.03000, 1.0
20.10000, 1.0
20.17000, 1.0
20.24000, 0.0
20.27000, 1.0
#ENDOFDATA   :

File: GaAs_30kV.emsa
#FORMAT      : EMSA/MAS Spectral Data File
#VERSION     : 1.0
#TITLE       : GaAs_30kV
#DATE        : 06-SEP-2022
#TIME        : 17:02
#OWNER       :
#NPOINTS     : 2048.0
#NCOLUMNS    : 1.0
#XUNITS      : keV
#YUNITS      : counts
#DATATYPE    : XY
#XPERCHAN    : 0.01
#OFFSET      : -0.2
#SIGNALTYPE  : EDS
#CHOFFSET    : 20.0
#LIVETIME    : 120.0
#REALTIME    : 173.751
#BEAMKV      : 30.0
#MAGCAM      : 2936.0
#XTILTSTGE   : 0.0
#AZIMANGLE   : 0.0
#ELEVANGLE   : 35.0
#XPOSITION mm: -15.6696
#YPOSITION mm: -6.9174
#ZPOSITION mm: 9.9088
##OXINSTPT   : 5
##OXINSTSTROB: 36.82
##OXINSTNDET : 1
##OXINSTELEMS: 8,12,31,33,6
##OXINSTLABEL: 8, 0.522, O
##OXINSTLABEL: 12, 1.254, Mg
##OXINSTLABEL: 31, 9.252, Ga
##OXINSTLABEL: 31, 10.264, Ga
##OXINSTLABEL: 31, 1.098, Ga
##OXINSTLABEL: 31, 0.984, Ga
##OXINSTLABEL: 31, 0.957, Ga
##OXINSTLABEL: 33, 10.544, As
##OXINSTLABEL: 33, 11.726, As
##OXINSTLABEL: 33, 1.282, As
##OXINSTLABEL: 33, 1.155, As
##OXINSTLABEL: 33, 1.120, As
##OXINSTLABEL: 6, 0.277, C
#SPECTRUM    : Spectral Data Starts Here
-0.20000, 0.0
-0.13000, 0.0
-0.06000, 3.0
0.01000, 7341.0
0.08000, 243.0
0.15000, 252.0
0.22000, 366.0
0.29000, 1008.0
0.36000, 288.0
0.43000, 415.0
0.50000, 638.0
0.57000, 651.0
0.64000, 811.0
0.71000, 1038.0
0.78000, 1320.0
0.85000, 1639.0
0.92000, 3208.0
0.99000, 5293.0
1.06000, 24038.0
1.13000, 52680.0
1.20000, 2834.0
1.27000, 23079.0
1.34000, 12346.0
1.41000, 953.0
1.48000, 539.0
1.55000, 535.0
1.62000, 564.0
1.69000, 759.0
1.76000, 1154.0
1.83000, 720.0
1.90000, 670.0
1.97000, 712.0
2.04000, 739.0
2.11000, 804.0
2.18000, 877.0
2.25000, 959.0
2.32000, 966.0
2.39000, 1007.0
2.46000, 1007.0
2.53000, 990.0
2.60000, 1057.0
2.67000, 1031.0
2.74000, 1035.0
2.81000, 1129.0
2.88000, 1114.0
2.95000, 1095.0
3.02000, 1084.0
3.09000, 1157.0
3.16000, 1159.0
3.23000, 1162.0
3.30000, 1170.0
3.37000, 1217.0
3.44000, 1153.0
3.51000, 1209.0
3.58000, 1168.0
3.65000, 1218.0
3.72000, 1210.0
3.79000, 1207.0
3.86000, 1110.0
3.93000, 1203.0
4.00000, 1202.0
4.07000, 1195.0
4.14000, 1150.0
4.21000, 1131.0
4.28000, 1170.0
4.35000, 1139.0
4.42000, 1158.0
4.49000, 1144.0
4.56000, 1099.0
4.63000, 1134.0
4.70000, 1090.0
4.77000, 1099.0
4.84000, 1075.0
4.91000, 1094.0
4.98000, 1110.0
5.05000, 1088.0
5.12000, 1020.0
5.19000, 1062.0
5.26000, 1028.0
5.33000, 1015.0
5.40000, 1019.0
5.47000, 982.0
5.54000, 984.0
5.61000, 960.0
5.68000, 949.0
5.75000, 980.0
5.82000, 926.0
5.89000, 968.0
5.96000, 898.0
6.03000, 893.0
6.10000, 923.0
6.17000, 916.0
6.24000, 839.0
6.31000, 895.0
6.38000, 857.0
6.45000, 866.0
6.52000, 868.0
6.59000, 838.0
6.66000, 822.0
6.73000, 803.0
6.80000, 824.0
6.87000, 807.0
6.94000, 803.0
7.01000, 757.0
7.08000, 766.0
7.15000, 763.0
7.22000, 742.0
7.29000, 735.0
7.36000, 737.0
7.43000, 738.0
7.50000, 727.0
7.57000, 743.0
7.64000, 683.0
7.71000, 702.0
7.78000, 712.0
7.85000, 678.0
7.92000, 698.0
7.99000, 660.0
8.06000, 657.0
8.13000, 641.0
8.20000, 662.0
8.27000, 643.0
8.34000, 643.0
8.41000, 639.0
8.48000, 609.0
8.55000, 627.0
8.62000, 632.0
8.69000, 641.0
8.76000, 638.0
8.83000, 592.0
8.90000, 641.0
8.97000, 653.0
9.04000, 997.0
9.11000, 4720.0
9.18000, 17961.0
9.25000, 25219.0
9.32000, 12286.0
9.39000, 2368.0
9.46000, 651.0
9.53000, 574.0
9.60000, 552.0
9.67000, 532.0
9.74000, 524.0
9.81000, 535.0
9.88000, 554.0
9.95000, 593.0
10.02000, 617.0
10.09000, 783.0
10.16000, 1874.0
10.23000, 3792.0
10.30000, 3520.0
10.37000, 2955.0
10.44000, 7755.0
10.51000, 14246.0
10.58000, 10634.0
10.65000, 3217.0
10.72000, 725.0
10.79000, 415.0
10.86000, 386.0
10.93000, 406.0
11.00000, 374.0
11.07000, 374.0
11.14000, 386.0
11.21000, 393.0
11.28000, 406.0
11.35000, 395.0
11.42000, 420.0
11.49000, 419.0
11.56000, 667.0
11.63000, 1421.0
11.70000, 2323.0
11.77000, 1868.0
11.84000, 854.0
11.91000, 460.0
11.98000, 319.0
12.05000, 299.0
12.12000, 289.0
12.19000, 315.0
12.26000, 293.0
12.33000, 293.0
12.40000, 299.0
12.47000, 284.0
12.54000, 275.0
12.61000, 266.0
12.68000, 280.0
12.75000, 294.0
12.82000, 273.0
12.89000, 283.0
12.96000, 269.0
13.03000, 271.0
13.10000, 232.0
13.17000, 258.0
13.24000, 262.0
13.31000, 264.0
13.38000, 229.0
13.45000, 231.0
13.52000, 226.0
13.59000, 247.0
13.66000, 218.0
13.73000, 243.0
13.80000, 247.0
13.87000, 219.0
13.94000, 218.0
14.01000, 228.0
14.08000, 214.0
14.15000, 216.0
14.22000, 212.0
14.29000, 204.0
14.36000, 194.0
14.43000, 203.0
14.50000, 197.0
14.57000, 183.0
14.64000, 203.0
14.71000, 172.0
14.78000, 209.0
14.85000, 206.0
14.92000, 179.0
14.99000, 184.0
15.06000, 174.0
15.13000, 182.0
15.20000, 183.0
15.27000, 169.0
15.34000, 181.0
15.41000, 165.0
15.48000, 178.0
15.55000, 160.0
15.62000, 150.0
15.69000, 162.0
15.76000, 149.0
15.83000, 149.0
15.90000, 142.0
15.97000, 144.0
16.04000, 140.0
16.11000, 148.0
16.18000, 152.0
16.25000, 148.0
16.32000, 142.0
16.39000, 131.0
16.46000, 120.0
16.53000, 125.0
16.60000, 134.0
16.67000, 127.0
16.74000, 107.0
16.81000, 123.0
16.88000, 102.0
16.95000, 116.0
17.02000, 104.0
17.09000, 111.0
17.16000, 123.0
17.23000, 118.0
17.30000, 101.0
17.37000, 119.0
17.44000, 109.0
17.51000, 109.0
17.58000, 101.0
17.65000, 96.0
17.72000, 84.0
17.79000, 88.0
17.86000, 100.0
17.93000, 95.0
18.00000, 95.0
18.07000, 97.0
18.14000, 84.0
18.21000, 80.0
18.28000, 87.0
18.35000, 104.0
18.42000, 111.0
18.49000, 104.0
18.56000, 100.0
18.63000, 93.0
18.70000, 79.0
18.77000, 74.0
18.84000, 74.0
18.91000, 71.0
18.98000, 68.0
19.05000, 65.0
19.12000, 76.0
19.19000, 64.0
19.26000, 70.0
19.33000, 75.0
19.40000, 69.0
19.47000, 75.0
19.54000, 70.0
19.61000, 76.0
19.68000, 98.0
19.75000, 113.0
19.82000, 90.0
19.89000, 72.0
19.96000, 69.0
20.03000, 47.0
20.10000, 63.0
20.17000, 47.0
20.24000, 54.0
20.27000, 52.0
#ENDOFDATA   :